Freq[Hz]      Mag   Phase[Deg]
5.00000      0.000     0.000
5.07273      0.000     0.000
5.14651      0.000     0.000
5.22137      0.000     0.000
5.29732      0.000     0.000
5.37437      0.000     0.000
5.45254      0.000     0.000
5.53185      0.000     0.000
5.61231      0.000     0.000
5.69394      0.000     0.000
5.77676      0.000     0.000
5.86079      0.000     0.000
5.94604      0.000     0.000
6.03252      0.000     0.000
6.12027      0.000     0.000
6.20929      0.000     0.000
6.29961      0.000     0.000
6.39124      0.000     0.000
6.48420      0.000     0.000
6.57851      0.000     0.000
6.67420      0.000     0.000
6.77128      0.000     0.000
6.86977      0.000     0.000
6.96969      0.000     0.000
7.07107      0.000     0.000
7.17392      0.000     0.000
7.27827      0.000     0.000
7.38413      0.000     0.000
7.49154      0.000     0.000
7.60050      0.000     0.000
7.71105      0.000     0.000
7.82321      0.000     0.000
7.93701      0.000     0.000
8.05245      0.000     0.000
8.16958      0.000     0.000
8.28841      0.000     0.000
8.40896      0.000     0.000
8.53128      0.000     0.000
8.65537      0.000     0.000
8.78126      0.000     0.000
8.90899      0.000     0.000
9.03857      0.000     0.000
9.17004      0.000     0.000
9.30342      0.000     0.000
9.43874      0.000     0.000
9.57603      0.000     0.000
9.71532      0.000     0.000
9.85663      0.000     0.000
10.0000      0.000     0.000
10.1455      0.000     0.000
10.2930      0.000     0.000
10.4427      0.000     0.000
10.5946      0.000     0.000
10.7487      0.000     0.000
10.9051      0.000     0.000
11.0637      0.000     0.000
11.2246      0.000     0.000
11.3879      0.000     0.000
11.5535      0.000     0.000
11.7216      0.000     0.000
11.8921      0.000     0.000
12.0650      0.000     0.000
12.2405      0.000     0.000
12.4186      0.000     0.000
12.5992      0.000     0.000
12.7825      0.000     0.000
12.9684      0.000     0.000
13.1570      0.000     0.000
13.3484      0.000     0.000
13.5426      0.000     0.000
13.7395      0.000     0.000
13.9394      0.000     0.000
14.1421      0.000     0.000
14.3478      0.000     0.000
14.5565      0.000     0.000
14.7683      0.000     0.000
14.9831      0.000     0.000
15.2010      0.000     0.000
15.4221      0.000     0.000
15.6464      0.000     0.000
15.8740      0.000     0.000
16.1049      0.000     0.000
16.3392      0.000     0.000
16.5768      0.000     0.000
16.8179      0.000     0.000
17.0626      0.000     0.000
17.3107      0.000     0.000
17.5625      0.000     0.000
17.8180      0.000     0.000
18.0771      0.000     0.000
18.3401      0.000     0.000
18.6068      0.000     0.000
18.8775      0.000     0.000
19.1521      0.000     0.000
19.4306      0.000     0.000
19.7133      0.000     0.000
20.0000      0.000     0.000
20.2909      0.000     0.000
20.5860      0.000     0.000
20.8855      0.000     0.000
21.1893      0.000     0.000
21.4975      0.000     0.000
21.8102      0.000     0.000
22.1274      0.000     0.000
22.4492      0.000     0.000
22.7758      0.000     0.000
23.1071      0.000     0.000
23.4432      0.000     0.000
23.7841      0.000     0.000
24.1301      0.000     0.000
24.4811      0.000     0.000
24.8372      0.000     0.000
25.1984      0.000     0.000
25.5649      0.000     0.000
25.9368      0.000     0.000
26.3141      0.000     0.000
26.6968      0.000     0.000
27.0851      0.000     0.000
27.4791      0.000     0.000
27.8788      0.000     0.000
28.2843      0.000     0.000
28.6957      0.000     0.000
29.1131      0.000     0.000
29.5365      0.000     0.000
29.9661      0.000     0.000
30.4020      0.000     0.000
30.8442      0.000     0.000
31.2929      0.000     0.000
31.7480      0.000     0.000
32.2098      0.000     0.000
32.6783      0.000     0.000
33.1536      0.000     0.000
33.6359      0.000     0.000
34.1251      0.000     0.000
34.6215      0.000     0.000
35.1250      0.000     0.000
35.6359      0.000     0.000
36.1543      0.000     0.000
36.6802      0.000     0.000
37.2137      0.000     0.000
37.7550      0.000     0.000
38.3041      0.000     0.000
38.8613      0.000     0.000
39.4265      0.000     0.000
40.0000      0.000     0.000
40.5818      0.000     0.000
41.1721      0.000     0.000
41.7710      0.000     0.000
42.3785      0.000     0.000
42.9949      0.000     0.000
43.6203      0.000     0.000
44.2548      0.000     0.000
44.8985      0.000     0.000
45.5515      0.000     0.000
46.2141      0.000     0.000
46.8863      0.000     0.000
47.5683      0.000     0.000
48.2602      0.000     0.000
48.9621      0.000     0.000
49.6743      0.000     0.000
50.3968      0.000     0.000
51.1299      0.000     0.000
51.8736      0.000     0.000
52.6281      0.000     0.000
53.3936      0.000     0.000
54.1702      0.000     0.000
54.9581      0.000     0.000
55.7575      0.000     0.000
56.5685      0.000     0.000
57.3914      0.000     0.000
58.2261      0.000     0.000
59.0730      0.000     0.000
59.9323      0.000     0.000
60.8040      0.000     0.000
61.6884      0.000     0.000
62.5857      0.000     0.000
63.4960      0.000     0.000
64.4196      0.000     0.000
65.3566      0.000     0.000
66.3073      0.000     0.000
67.2717      0.000     0.000
68.2502      0.000     0.000
69.2429      0.000     0.000
70.2501      0.000     0.000
71.2719      0.000     0.000
72.3086      0.000     0.000
73.3603      0.000     0.000
74.4274      0.000     0.000
75.5099      0.000     0.000
76.6083      0.000     0.000
77.7226      0.000     0.000
78.8531      0.000     0.000
80.0000      0.000     0.000
81.1636      0.000     0.000
82.3442      0.000     0.000
83.5419      0.000     0.000
84.7570      0.000     0.000
85.9899      0.000     0.000
87.2406      0.000     0.000
88.5096      0.000     0.000
89.7970      0.000     0.000
91.1031      0.000     0.000
92.4282      0.000     0.000
93.7726      0.000     0.000
95.1366      0.000     0.000
96.5204      0.000     0.000
97.9243      0.000     0.000
99.3486      0.000     0.000
100.794      0.000     0.000
102.260      0.000     0.000
103.747      0.000     0.000
105.256      0.000     0.000
106.787      0.000     0.000
108.340      0.000     0.000
109.916      0.000     0.000
111.515      0.000     0.000
113.137      0.000     0.000
114.783      0.000     0.000
116.452      0.000     0.000
118.146      0.000     0.000
119.865      0.000     0.000
121.608      0.000     0.000
123.377      0.000     0.000
125.171      0.000     0.000
126.992      0.000     0.000
128.839      0.000     0.000
130.713      0.000     0.000
132.615      0.000     0.000
134.543      0.000     0.000
136.500      0.000     0.000
138.486      0.000     0.000
140.500      0.000     0.000
142.544      0.000     0.000
144.617      0.000     0.000
146.721      0.000     0.000
148.855      0.000     0.000
151.020      0.000     0.000
153.217      0.000     0.000
155.445      0.000     0.000
157.706      0.000     0.000
160.000      0.000     0.000
162.327      0.000     0.000
164.688      0.000     0.000
167.084      0.000     0.000
169.514      0.000     0.000
171.980      0.000     0.000
174.481      0.000     0.000
177.019      0.000     0.000
179.594      0.000     0.000
182.206      0.000     0.000
184.856      0.000     0.000
187.545      0.000     0.000
190.273      0.000     0.000
193.041      0.000     0.000
195.849      0.000     0.000
198.697      0.000     0.000
201.587      0.000     0.000
204.520      0.000     0.000
207.494      0.000     0.000
210.512      0.000     0.000
213.574      0.000     0.000
216.681      0.000     0.000
219.833      0.000     0.000
223.030      0.000     0.000
226.274      0.000     0.000
229.565      0.000     0.000
232.905      0.000     0.000
236.292      0.000     0.000
239.729      0.000     0.000
243.216      0.000     0.000
246.754      0.000     0.000
250.343      0.000     0.000
253.984      0.000     0.000
257.678      0.000     0.000
261.426      0.000     0.000
265.229      0.000     0.000
269.087      0.000     0.000
273.001      0.000     0.000
276.972      0.000     0.000
281.000      0.000     0.000
285.088      0.000     0.000
289.234      0.000     0.000
293.441      0.000     0.000
297.709      0.000     0.000
302.040      0.000     0.000
306.433      0.000     0.000
310.890      0.000     0.000
315.412      0.000     0.000
320.000      0.000     0.000
324.655      0.000     0.000
329.377      0.000     0.000
334.168      0.000     0.000
339.028      0.000     0.000
343.959      0.000     0.000
348.962      0.000     0.000
354.038      0.000     0.000
359.188      0.000     0.000
364.412      0.000     0.000
369.713      0.000     0.000
375.090      0.000     0.000
380.546      0.000     0.000
386.081      0.000     0.000
391.697      0.000     0.000
397.394      0.000     0.000
403.175      0.000     0.000
409.039      0.000     0.000
414.989      0.000     0.000
421.025      0.000     0.000
427.149      0.000     0.000
433.362      0.000     0.000
439.665      0.000     0.000
446.060      0.000     0.000
452.548      0.000     0.000
459.131      0.000     0.000
465.809      0.000     0.000
472.584      0.000     0.000
479.458      0.000     0.000
486.432      0.000     0.000
493.507      0.000     0.000
500.686      0.000     0.000
507.968      0.000     0.000
515.357      0.000     0.000
522.853      0.000     0.000
530.458      0.000     0.000
538.174      0.000     0.000
546.002      0.000     0.000
553.943      0.000     0.000
562.001      0.000     0.000
570.175      0.000     0.000
578.469      0.000     0.000
586.883      0.000     0.000
595.419      0.000     0.000
604.080      0.000     0.000
612.866      0.000     0.000
621.780      0.000     0.000
630.824      0.000     0.000
640.000      0.000     0.000
649.309      0.000     0.000
658.753      0.000     0.000
668.335      0.000     0.000
678.056      0.000     0.000
687.919      0.000     0.000
697.925      0.000     0.000
708.077      0.000     0.000
718.376      0.000     0.000
728.825      0.000     0.000
739.426      0.000     0.000
750.181      0.000     0.000
761.093      0.000     0.000
772.163      0.000     0.000
783.394      0.000     0.000
794.789      0.000     0.000
806.349      0.000     0.000
818.078      0.000     0.000
829.977      0.000     0.000
842.050      0.000     0.000
854.298      0.000     0.000
866.724      0.000     0.000
879.330      0.000     0.000
892.120      0.000     0.000
905.097      0.000     0.000
918.262      0.000     0.000
931.618      0.000     0.000
945.169      0.000     0.000
958.917      0.000     0.000
972.864      0.000     0.000
987.015      0.000     0.000
1001.37      0.000     0.000
1015.94      0.000     0.000
1030.71      0.000     0.000
1045.71      0.000     0.000
1060.92      0.000     0.000
1076.35      0.000     0.000
1092.00      0.000     0.000
1107.89      0.000     0.000
1124.00      0.000     0.000
1140.35      0.000     0.000
1156.94      0.000     0.000
1173.77      0.000     0.000
1190.84      0.000     0.000
1208.16      0.000     0.000
1225.73      0.000     0.000
1243.56      0.000     0.000
1261.65      0.000     0.000
1280.00      0.000     0.000
1298.62      0.000     0.000
1317.51      0.000     0.000
1336.67      0.000     0.000
1356.11      0.000     0.000
1375.84      0.000     0.000
1395.85      0.000     0.000
1416.15      0.000     0.000
1436.75      0.000     0.000
1457.65      0.000     0.000
1478.85      0.000     0.000
1500.36      0.000     0.000
1522.19      0.000     0.000
1544.33      0.000     0.000
1566.79      0.000     0.000
1589.58      0.000     0.000
1612.70      0.000     0.000
1636.16      0.000     0.000
1659.95      0.000     0.000
1684.10      0.000     0.000
1708.60      0.000     0.000
1733.45      0.000     0.000
1758.66      0.000     0.000
1784.24      0.000     0.000
1810.19      0.000     0.000
1836.52      0.000     0.000
1863.24      0.000     0.000
1890.34      0.000     0.000
1917.83      0.000     0.000
1945.73      0.000     0.000
1974.03      0.000     0.000
2002.74      0.000     0.000
2031.87      0.000     0.000
2061.43      0.000     0.000
2091.41      0.000     0.000
2121.83      0.000     0.000
2152.69      0.000     0.000
2184.01      0.000     0.000
2215.77      0.000     0.000
2248.00      0.000     0.000
2280.70      0.000     0.000
2313.87      0.000     0.000
2347.53      0.000     0.000
2381.68      0.000     0.000
2416.32      0.000     0.000
2451.46      0.000     0.000
2487.12      0.000     0.000
2523.30      0.000     0.000
2560.00      0.000     0.000
2597.24      0.000     0.000
2635.01      0.000     0.000
2673.34      0.000     0.000
2712.23      0.000     0.000
2751.68      0.000     0.000
2791.70      0.000     0.000
2832.31      0.000     0.000
2873.50      0.000     0.000
2915.30      0.000     0.000
2957.70      0.000     0.000
3000.72      0.000     0.000
3044.37      0.000     0.000
3088.65      0.000     0.000
3133.58      0.000     0.000
3179.16      0.000     0.000
3225.40      0.000     0.000
3272.31      0.000     0.000
3319.91      0.000     0.000
3368.20      0.000     0.000
3417.19      0.000     0.000
3466.89      0.000     0.000
3517.32      0.000     0.000
3568.48      0.000     0.000
3620.39      0.000     0.000
3673.05      0.000     0.000
3726.47      0.000     0.000
3780.67      0.000     0.000
3835.67      0.000     0.000
3891.46      0.000     0.000
3948.06      0.000     0.000
4005.49      0.000     0.000
4063.75      0.000     0.000
4122.86      0.000     0.000
4182.82      0.000     0.000
4243.66      0.000     0.000
4305.39      0.000     0.000
4368.01      0.000     0.000
4431.55      0.000     0.000
4496.01      0.000     0.000
4561.40      0.000     0.000
4627.75      0.000     0.000
4695.06      0.000     0.000
4763.35      0.000     0.000
4832.64      0.000     0.000
4902.93      0.000     0.000
4974.24      0.000     0.000
5046.60      0.000     0.000
5120.00      0.000     0.000
5194.47      0.000     0.000
5270.03      0.000     0.000
5346.68      0.000     0.000
5424.45      0.000     0.000
5503.35      0.000     0.000
5583.40      0.000     0.000
5664.61      0.000     0.000
5747.01      0.000     0.000
5830.60      0.000     0.000
5915.41      0.000     0.000
6001.45      0.000     0.000
6088.74      0.000     0.000
6177.30      0.000     0.000
6267.15      0.000     0.000
6358.31      0.000     0.000
6450.80      0.000     0.000
6544.62      0.000     0.000
6639.82      0.000     0.000
6736.40      0.000     0.000
6834.38      0.000     0.000
6933.79      0.000     0.000
7034.64      0.000     0.000
7136.96      0.000     0.000
7240.77      0.000     0.000
7346.09      0.000     0.000
7452.94      0.000     0.000
7561.35      0.000     0.000
7671.33      0.000     0.000
7782.91      0.000     0.000
7896.12      0.000     0.000
8010.97      0.000     0.000
8127.49      0.000     0.000
8245.71      0.000     0.000
8365.65      0.000     0.000
8487.33      0.000     0.000
8610.78      0.000     0.000
8736.03      0.000     0.000
8863.09      0.000     0.000
8992.01      0.000     0.000
9122.80      0.000     0.000
9255.50      0.000     0.000
9390.12      0.000     0.000
9526.70      0.000     0.000
9665.27      0.000     0.000
9805.86      0.000     0.000
9948.49      0.000     0.000
10093.2      0.000     0.000
10240.0      0.000     0.000
10388.9      0.000     0.000
10540.1      0.000     0.000
10693.4      0.000     0.000
10848.9      0.000     0.000
11006.7      0.000     0.000
11166.8      0.000     0.000
11329.2      0.000     0.000
11494.0      0.000     0.000
11661.2      0.000     0.000
11830.8      0.000     0.000
12002.9      0.000     0.000
12177.5      0.000     0.000
12354.6      0.000     0.000
12534.3      0.000     0.000
12716.6      0.000     0.000
12901.6      0.000     0.000
13089.2      0.000     0.000
13279.6      0.000     0.000
13472.8      0.000     0.000
13668.8      0.000     0.000
13867.6      0.000     0.000
14069.3      0.000     0.000
14273.9      0.000     0.000
14481.5      0.000     0.000
14692.2      0.000     0.000
14905.9      0.000     0.000
15122.7      0.000     0.000
15342.7      0.000     0.000
15565.8      0.000     0.000
15792.2      0.000     0.000
16021.9      0.000     0.000
16255.0      0.000     0.000
16491.4      0.000     0.000
16731.3      0.000     0.000
16974.7      0.000     0.000
17221.6      0.000     0.000
17472.1      0.000     0.000
17726.2      0.000     0.000
17984.0      0.000     0.000
18245.6      0.000     0.000
18511.0      0.000     0.000
18780.2      0.000     0.000
19053.4      0.000     0.000
19330.5      0.000     0.000
19611.7      0.000     0.000
19897.0      0.000     0.000
20186.4      0.000     0.000
20480.0      0.000     0.000
20777.9      0.000     0.000
21080.1      0.000     0.000
21386.7      0.000     0.000
21697.8      0.000     0.000
22013.4      0.000     0.000
22333.6      0.000     0.000
22658.4      0.000     0.000
22988.0      0.000     0.000
23322.4      0.000     0.000
23661.6      0.000     0.000
24005.8      0.000     0.000
24355.0      0.000     0.000
24709.2      0.000     0.000
25068.6      0.000     0.000
25433.2      0.000     0.000
25803.2      0.000     0.000
26178.5      0.000     0.000
26559.3      0.000     0.000
26945.6      0.000     0.000
27337.5      0.000     0.000
27735.2      0.000     0.000
28138.6      0.000     0.000
28547.9      0.000     0.000
28963.1      0.000     0.000
29384.4      0.000     0.000
29811.8      0.000     0.000
30245.4      0.000     0.000
30685.3      0.000     0.000
31131.7      0.000     0.000
31584.5      0.000     0.000
32043.9      0.000     0.000
32510.0      0.000     0.000
32982.8      0.000     0.000
33462.6      0.000     0.000
33949.3      0.000     0.000
34443.1      0.000     0.000
34944.1      0.000     0.000
35452.4      0.000     0.000
35968.0      0.000     0.000
36491.2      0.000     0.000
37022.0      0.000     0.000
37560.5      0.000     0.000
38106.8      0.000     0.000
38661.1      0.000     0.000
39223.4      0.000     0.000
39793.9      0.000     0.000
